File: data/FTIR_ATR_After TGA 30-300°C 10K-min_01.dpt
4497.74,0.02183
4493.88,0.02181
4490.03,0.02187
4486.17,0.02191
4482.31,0.02180
4478.45,0.02177
4474.6,0.02178
4470.74,0.02175
4466.88,0.02169
4463.02,0.02165
4459.17,0.02164
4455.31,0.02163
4451.45,0.02156
4447.59,0.02154
4443.74,0.02155
4439.88,0.02152
4436.02,0.02150
4432.16,0.02144
4428.31,0.02137
4424.45,0.02135
4420.59,0.02137
4416.73,0.02137
4412.88,0.02135
4409.02,0.02126
4405.16,0.02125
4401.3,0.02123
4397.45,0.02117
4393.59,0.02117
4389.73,0.02116
4385.88,0.02116
4382.02,0.02113
4378.16,0.02114
4374.3,0.02104
4370.45,0.02103
4366.59,0.02103
4362.73,0.02105
4358.87,0.02102
4355.02,0.02092
4351.16,0.02093
4347.3,0.02095
4343.44,0.02096
4339.59,0.02090
4335.73,0.02088
4331.87,0.02087
4328.01,0.02090
4324.16,0.02080
4320.3,0.02068
4316.44,0.02071
4312.58,0.02073
4308.73,0.02067
4304.87,0.02065
4301.01,0.02067
4297.15,0.02063
4293.3,0.02053
4289.44,0.02052
4285.58,0.02057
4281.72,0.02057
4277.87,0.02054
4274.01,0.02053
4270.15,0.02050
4266.3,0.02041
4262.44,0.02042
4258.58,0.02038
4254.72,0.02041
4250.87,0.02043
4247.01,0.02044
4243.15,0.02039
4239.29,0.02035
4235.44,0.02029
4231.58,0.02030
4227.72,0.02026
4223.86,0.02026
4220.01,0.02022
4216.15,0.02022
4212.29,0.02024
4208.43,0.02020
4204.58,0.02025
4200.72,0.02022
4196.86,0.02021
4193,0.02021
4189.15,0.02020
4185.29,0.02018
4181.43,0.02012
4177.57,0.02011
4173.72,0.02010
4169.86,0.02009
4166,0.02005
4162.15,0.01999
4158.29,0.01997
4154.43,0.02000
4150.57,0.01999
4146.72,0.01997
4142.86,0.01991
4139,0.01989
4135.14,0.01986
4131.29,0.01988
4127.43,0.01987
4123.57,0.01982
4119.71,0.01982
4115.86,0.01978
4112,0.01974
4108.14,0.01974
4104.28,0.01975
4100.43,0.01966
4096.57,0.01964
4092.71,0.01968
4088.85,0.01966
4085,0.01960
4081.14,0.01962
4077.28,0.01960
4073.42,0.01958
4069.57,0.01952
4065.71,0.01954
4061.85,0.01952
4058,0.01950
4054.14,0.01950
4050.28,0.01946
4046.42,0.01942
4042.57,0.01938
4038.71,0.01940
4034.85,0.01935
4030.99,0.01927
4027.14,0.01928
4023.28,0.01922
4019.42,0.01916
4015.56,0.01911
4011.71,0.01911
4007.85,0.01910
4003.99,0.01907
4000.13,0.01905
3996.28,0.01903
3992.42,0.01903
3988.56,0.01900
3984.7,0.01895
3980.85,0.01893
3976.99,0.01892
3973.13,0.01885
3969.27,0.01882
3965.42,0.01881
3961.56,0.01878
3957.7,0.01878
3953.85,0.01874
3949.99,0.01874
3946.13,0.01871
3942.27,0.01867
3938.42,0.01861
3934.56,0.01863
3930.7,0.01858
3926.84,0.01860
3922.99,0.01859
3919.13,0.01855
3915.27,0.01854
3911.41,0.01853
3907.56,0.01859
3903.7,0.01874
3899.84,0.01871
3895.98,0.01865
3892.13,0.01875
3888.27,0.01878
3884.41,0.01879
3880.55,0.01869
3876.7,0.01856
3872.84,0.01857
3868.98,0.01857
3865.12,0.01845
3861.27,0.01834
3857.41,0.01840
3853.55,0.01875
3849.7,0.01832
3845.84,0.01821
3841.98,0.01824
3838.12,0.01828
3834.27,0.01806
3830.41,0.01794
3826.55,0.01784
3822.69,0.01793
3818.84,0.01794
3814.98,0.01784
3811.12,0.01765
3807.26,0.01771
3803.41,0.01770
3799.55,0.01766
3795.69,0.01749
3791.83,0.01737
3787.98,0.01735
3784.12,0.01734
3780.26,0.01728
3776.4,0.01720
3772.55,0.01721
3768.69,0.01719
3764.83,0.01713
3760.97,0.01714
3757.12,0.01710
3753.26,0.01726
3749.4,0.01738
3745.54,0.01728
3741.69,0.01703
3737.83,0.01700
3733.97,0.01700
3730.12,0.01682
3726.26,0.01676
3722.4,0.01666
3718.54,0.01652
3714.69,0.01648
3710.83,0.01652
3706.97,0.01634
3703.11,0.01627
3699.26,0.01614
3695.4,0.01609
3691.54,0.01618
3687.68,0.01617
3683.83,0.01589
3679.97,0.01591
3676.11,0.01608
3672.25,0.01602
3668.4,0.01584
3664.54,0.01552
3660.68,0.01546
3656.82,0.01552
3652.97,0.01548
3649.11,0.01557
3645.25,0.01531
3641.39,0.01518
3637.54,0.01511
3633.68,0.01515
3629.82,0.01535
3625.97,0.01520
3622.11,0.01518
3618.25,0.01517
3614.39,0.01506
3610.54,0.01502
3606.68,0.01495
3602.82,0.01481
3598.96,0.01473
3595.11,0.01467
3591.25,0.01461
3587.39,0.01455
3583.53,0.01442
3579.68,0.01431
3575.82,0.01422
3571.96,0.01419
3568.1,0.01423
3564.25,0.01414
3560.39,0.01399
3556.53,0.01392
3552.67,0.01386
3548.82,0.01381
3544.96,0.01372
3541.1,0.01368
3537.24,0.01373
3533.39,0.01379
3529.53,0.01395
3525.67,0.01416
3521.82,0.01443
3517.96,0.01481
3514.1,0.01532
3510.24,0.01590
3506.39,0.01647
3502.53,0.01725
3498.67,0.01814
3494.81,0.01912
3490.96,0.02044
3487.1,0.02222
3483.24,0.02476
3479.38,0.02902
3475.53,0.03747
3471.67,0.05037
3467.81,0.05691
3463.95,0.05137
3460.1,0.04346
3456.24,0.03792
3452.38,0.03430
3448.52,0.03215
3444.67,0.03096
3440.81,0.03059
3436.95,0.03102
3433.09,0.03225
3429.24,0.03471
3425.38,0.03966
3421.52,0.04689
3417.67,0.05140
3413.81,0.05032
3409.95,0.04672
3406.09,0.04301
3402.24,0.04037
3398.38,0.03887
3394.52,0.03832
3390.66,0.03842
3386.81,0.03902
3382.95,0.03994
3379.09,0.04119
3375.23,0.04285
3371.38,0.04480
3367.52,0.04703
3363.66,0.04958
3359.8,0.05240
3355.95,0.05543
3352.09,0.05874
3348.23,0.06217
3344.37,0.06555
3340.52,0.06860
3336.66,0.07122
3332.8,0.07329
3328.94,0.07470
3325.09,0.07546
3321.23,0.07560
3317.37,0.07521
3313.52,0.07438
3309.66,0.07323
3305.8,0.07198
3301.94,0.07067
3298.09,0.06942
3294.23,0.06823
3290.37,0.06717
3286.51,0.06618
3282.66,0.06524
3278.8,0.06435
3274.94,0.06361
3271.08,0.06303
3267.23,0.06253
3263.37,0.06213
3259.51,0.06191
3255.65,0.06182
3251.8,0.06190
3247.94,0.06217
3244.08,0.06266
3240.22,0.06327
3236.37,0.06420
3232.51,0.06532
3228.65,0.06666
3224.79,0.06819
3220.94,0.06988
3217.08,0.07169
3213.22,0.07358
3209.36,0.07553
3205.51,0.07744
3201.65,0.07926
3197.79,0.08099
3193.94,0.08243
3190.08,0.08385
3186.22,0.08497
3182.36,0.08592
3178.51,0.08684
3174.65,0.08775
3170.79,0.08877
3166.93,0.09004
3163.08,0.09166
3159.22,0.09367
3155.36,0.09601
3151.5,0.09853
3147.65,0.10128
3143.79,0.10412
3139.93,0.10683
3136.07,0.10926
3132.22,0.11113
3128.36,0.11234
3124.5,0.11288
3120.64,0.11279
3116.79,0.11218
3112.93,0.11119
3109.07,0.10990
3105.21,0.10850
3101.36,0.10704
3097.5,0.10562
3093.64,0.10420
3089.79,0.10274
3085.93,0.10121
3082.07,0.09964
3078.21,0.09803
3074.36,0.09644
3070.5,0.09485
3066.64,0.09331
3062.78,0.09180
3058.93,0.09033
3055.07,0.08885
3051.21,0.08742
3047.35,0.08602
3043.5,0.08465
3039.64,0.08327
3035.78,0.08197
3031.92,0.08069
3028.07,0.07940
3024.21,0.07818
3020.35,0.07699
3016.49,0.07584
3012.64,0.07469
3008.78,0.07354
3004.92,0.07247
3001.06,0.07146
2997.21,0.07050
2993.35,0.06959
2989.49,0.06873
2985.64,0.06801
2981.78,0.06730
2977.92,0.06660
2974.06,0.06584
2970.21,0.06499
2966.35,0.06410
2962.49,0.06320
2958.63,0.06234
2954.78,0.06156
2950.92,0.06073
2947.06,0.05981
2943.2,0.05887
2939.35,0.05795
2935.49,0.05696
2931.63,0.05596
2927.77,0.05499
2923.92,0.05407
2920.06,0.05319
2916.2,0.05244
2912.34,0.05201
2908.49,0.05158
2904.63,0.05103
2900.77,0.05044
2896.91,0.04995
2893.06,0.04950
2889.2,0.04907
2885.34,0.04872
2881.49,0.04847
2877.63,0.04823
2873.77,0.04801
2869.91,0.04788
2866.06,0.04772
2862.2,0.04759
2858.34,0.04741
2854.48,0.04722
2850.63,0.04713
2846.77,0.04729
2842.91,0.04755
2839.05,0.04772
2835.2,0.04774
2831.34,0.04767
2827.48,0.04753
2823.62,0.04741
2819.77,0.04713
2815.91,0.04678
2812.05,0.04645
2808.19,0.04598
2804.34,0.04555
2800.48,0.04508
2796.62,0.04456
2792.76,0.04404
2788.91,0.04356
2785.05,0.04312
2781.19,0.04270
2777.34,0.04234
2773.48,0.04200
2769.62,0.04166
2765.76,0.04133
2761.91,0.04100
2758.05,0.04070
2754.19,0.04046
2750.33,0.04021
2746.48,0.03998
2742.62,0.03969
2738.76,0.03933
2734.9,0.03895
2731.05,0.03857
2727.19,0.03824
2723.33,0.03799
2719.47,0.03784
2715.62,0.03778
2711.76,0.03772
2707.9,0.03765
2704.04,0.03764
2700.19,0.03760
2696.33,0.03756
2692.47,0.03755
2688.61,0.03753
2684.76,0.03745
2680.9,0.03732
2677.04,0.03711
2673.19,0.03684
2669.33,0.03653
2665.47,0.03624
2661.61,0.03607
2657.76,0.03593
2653.9,0.03574
2650.04,0.03553
2646.18,0.03535
2642.33,0.03515
2638.47,0.03498
2634.61,0.03484
2630.75,0.03464
2626.9,0.03447
2623.04,0.03438
2619.18,0.03420
2615.32,0.03405
2611.47,0.03395
2607.61,0.03380
2603.75,0.03362
2599.89,0.03343
2596.04,0.03330
2592.18,0.03318
2588.32,0.03309
2584.46,0.03293
2580.61,0.03285
2576.75,0.03282
2572.89,0.03280
2569.03,0.03268
2565.18,0.03255
2561.32,0.03242
2557.46,0.03229
2553.61,0.03210
2549.75,0.03197
2545.89,0.03178
2542.03,0.03163
2538.18,0.03142
2534.32,0.03122
2530.46,0.03110
2526.6,0.03101
2522.75,0.03082
2518.89,0.03071
2515.03,0.03063
2511.17,0.03054
2507.32,0.03045
2503.46,0.03036
2499.6,0.03024
2495.74,0.03006
2491.89,0.02986
2488.03,0.02969
2484.17,0.02957
2480.31,0.02942
2476.46,0.02930
2472.6,0.02909
2468.74,0.02885
2464.88,0.02870
2461.03,0.02852
2457.17,0.02831
2453.31,0.02815
2449.46,0.02792
2445.6,0.02774
2441.74,0.02747
2437.88,0.02723
2434.03,0.02702
2430.17,0.02688
2426.31,0.02666
2422.45,0.02646
2418.6,0.02625
2414.74,0.02608
2410.88,0.02592
2407.02,0.02561
2403.17,0.02535
2399.31,0.02520
2395.45,0.02505
2391.59,0.02490
2387.74,0.02473
2383.88,0.02473
2380.02,0.02489
2376.16,0.02544
2372.31,0.02631
2368.45,0.02732
2364.59,0.02812
2360.73,0.02840
2356.88,0.02778
2353.02,0.02634
2349.16,0.02530
2345.31,0.02611
2341.45,0.02711
2337.59,0.02739
2333.73,0.02731
2329.88,0.02700
2326.02,0.02726
2322.16,0.02748
2318.3,0.02661
2314.45,0.02601
2310.59,0.02563
2306.73,0.02535
2302.87,0.02521
2299.02,0.02520
2295.16,0.02528
2291.3,0.02553
2287.44,0.02592
2283.59,0.02609
2279.73,0.02600
2275.87,0.02608
2272.01,0.02623
2268.16,0.02638
2264.3,0.02641
2260.44,0.02666
2256.58,0.02696
2252.73,0.02690
2248.87,0.02705
2245.01,0.02747
2241.16,0.02780
2237.3,0.02807
2233.44,0.02840
2229.58,0.02865
2225.73,0.02898
2221.87,0.02925
2218.01,0.02936
2214.15,0.02960
2210.3,0.02998
2206.44,0.03025
2202.58,0.03041
2198.72,0.03051
2194.87,0.03081
2191.01,0.03119
2187.15,0.03147
2183.29,0.03141
2179.44,0.03092
2175.58,0.03068
2171.72,0.03071
2167.86,0.03141
2164.01,0.03202
2160.15,0.03164
2156.29,0.02784
2152.43,0.02728
2148.58,0.02709
2144.72,0.02632
2140.86,0.02576
2137.01,0.02506
2133.15,0.02377
2129.29,0.02314
2125.43,0.02318
2121.58,0.02312
2117.72,0.02303
2113.86,0.02320
2110,0.02289
2106.15,0.02262
2102.29,0.02237
2098.43,0.02199
2094.57,0.02133
2090.72,0.02116
2086.86,0.02134
2083,0.02141
2079.14,0.02152
2075.29,0.02159
2071.43,0.02159
2067.57,0.02151
2063.71,0.02147
2059.86,0.02152
2056,0.02178
2052.14,0.02244
2048.28,0.02295
2044.43,0.02266
2040.57,0.02297
2036.71,0.02330
2032.85,0.02272
2029,0.02227
2025.14,0.02195
2021.28,0.02160
2017.43,0.02121
2013.57,0.02094
2009.71,0.02069
2005.85,0.01987
2002,0.01927
1998.14,0.01912
1994.28,0.01901
1990.42,0.01895
1986.57,0.01906
1982.71,0.01964
1978.85,0.02008
1974.99,0.01834
1971.14,0.01754
1967.28,0.01738
1963.42,0.01671
1959.56,0.01586
1955.71,0.01545
1951.85,0.01514
1947.99,0.01487
1944.13,0.01445
1940.28,0.01399
1936.42,0.01364
1932.56,0.01330
1928.7,0.01294
1924.85,0.01258
1920.99,0.01250
1917.13,0.01233
1913.28,0.01202
1909.42,0.01185
1905.56,0.01164
1901.7,0.01132
1897.85,0.01113
1893.99,0.01090
1890.13,0.01074
1886.27,0.01063
1882.42,0.01044
1878.56,0.01025
1874.7,0.01005
1870.84,0.00995
1866.99,0.00980
1863.13,0.00967
1859.27,0.00950
1855.41,0.00924
1851.56,0.00911
1847.7,0.00902
1843.84,0.00889
1839.98,0.00862
1836.13,0.00849
1832.27,0.00839
1828.41,0.00827
1824.55,0.00813
1820.7,0.00794
1816.84,0.00745
1812.98,0.00738
1809.13,0.00737
1805.27,0.00727
1801.41,0.00727
1797.55,0.00724
1793.7,0.00733
1789.84,0.00733
1785.98,0.00736
1782.12,0.00747
1778.27,0.00754
1774.41,0.00781
1770.55,0.00802
1766.69,0.00799
1762.84,0.00803
1758.98,0.00792
1755.12,0.00782
1751.26,0.00788
1747.41,0.00781
1743.55,0.00783
1739.69,0.00803
1735.83,0.00843
1731.98,0.00878
1728.12,0.00905
1724.26,0.00969
1720.4,0.01066
1716.55,0.01183
1712.69,0.01273
1708.83,0.01405
1704.98,0.01579
1701.12,0.01794
1697.26,0.02005
1693.4,0.02238
1689.55,0.02568
1685.69,0.03057
1681.83,0.03664
1677.97,0.04387
1674.12,0.05183
1670.26,0.06114
1666.4,0.07280
1662.54,0.08587
1658.69,0.09828
1654.83,0.10983
1650.97,0.11894
1647.11,0.12374
1643.26,0.12577
1639.4,0.12817
1635.54,0.13271
1631.68,0.13806
1627.83,0.14331
1623.97,0.14678
1620.11,0.14687
1616.25,0.14325
1612.4,0.13683
1608.54,0.13017
1604.68,0.12507
1600.83,0.12262
1596.97,0.12401
1593.11,0.12992
1589.25,0.13865
1585.4,0.14766
1581.54,0.15530
1577.68,0.16102
1573.82,0.16459
1569.97,0.16749
1566.11,0.17122
1562.25,0.17725
1558.39,0.18609
1554.54,0.19560
1550.68,0.20498
1546.82,0.21252
1542.96,0.21738
1539.11,0.21995
1535.25,0.22098
1531.39,0.22129
1527.53,0.22014
1523.68,0.21629
1519.82,0.20872
1515.96,0.19798
1512.1,0.18616
1508.25,0.17526
1504.39,0.16504
1500.53,0.15592
1496.68,0.14790
1492.82,0.14074
1488.96,0.13507
1485.1,0.13161
1481.25,0.13296
1477.39,0.14170
1473.53,0.15655
1469.67,0.17102
1465.82,0.17862
1461.96,0.17855
1458.1,0.17689
1454.24,0.17785
1450.39,0.18411
1446.53,0.19640
1442.67,0.21275
1438.81,0.23058
1434.96,0.24509
1431.1,0.25072
1427.24,0.24842
1423.38,0.24266
1419.53,0.23638
1415.67,0.23024
1411.81,0.22406
1407.95,0.21742
1404.1,0.21088
1400.24,0.20464
1396.38,0.19860
1392.52,0.19255
1388.67,0.18666
1384.81,0.18120
1380.95,0.17670
1377.1,0.17355
1373.24,0.17255
1369.38,0.17455
1365.52,0.17940
1361.67,0.18377
1357.81,0.18517
1353.95,0.18538
1350.09,0.18561
1346.24,0.18578
1342.38,0.18570
1338.52,0.18540
1334.66,0.18506
1330.81,0.18515
1326.95,0.18555
1323.09,0.18582
1319.23,0.18526
1315.38,0.18373
1311.52,0.18217
1307.66,0.18083
1303.8,0.17842
1299.95,0.17452
1296.09,0.16988
1292.23,0.16529
1288.37,0.16130
1284.52,0.15829
1280.66,0.15607
1276.8,0.15423
1272.95,0.15281
1269.09,0.15199
1265.23,0.15148
1261.37,0.15076
1257.52,0.14965
1253.66,0.14815
1249.8,0.14632
1245.94,0.14429
1242.09,0.14220
1238.23,0.14014
1234.37,0.13802
1230.51,0.13587
1226.66,0.13375
1222.8,0.13165
1218.94,0.12975
1215.08,0.12834
1211.23,0.12768
1207.37,0.12805
1203.51,0.12968
1199.65,0.13185
1195.8,0.13329
1191.94,0.13390
1188.08,0.13424
1184.22,0.13388
1180.37,0.13307
1176.51,0.13310
1172.65,0.13322
1168.8,0.13125
1164.94,0.12744
1161.08,0.12344
1157.22,0.12046
1153.37,0.11845
1149.51,0.11676
1145.65,0.11515
1141.79,0.11356
1137.94,0.11209
1134.08,0.11066
1130.22,0.10939
1126.36,0.10836
1122.51,0.10780
1118.65,0.10848
1114.79,0.10999
1110.93,0.11107
1107.08,0.11126
1103.22,0.11001
1099.36,0.10838
1095.5,0.10683
1091.65,0.10546
1087.79,0.10426
1083.93,0.10306
1080.07,0.10184
1076.22,0.10059
1072.36,0.09930
1068.5,0.09818
1064.65,0.09716
1060.79,0.09622
1056.93,0.09555
1053.07,0.09526
1049.22,0.09593
1045.36,0.09882
1041.5,0.10549
1037.64,0.11603
1033.79,0.12661
1029.93,0.13366
1026.07,0.13777
1022.21,0.13918
1018.36,0.13765
1014.5,0.13396
1010.64,0.12941
1006.78,0.12468
1002.93,0.11981
999.069,0.11503
995.212,0.11104
991.354,0.10835
987.497,0.10649
983.64,0.10462
979.782,0.10255
975.925,0.10019
972.067,0.09779
968.21,0.09562
964.352,0.09380
960.495,0.09237
956.638,0.09106
952.78,0.08971
948.923,0.08827
945.065,0.08684
941.208,0.08541
937.351,0.08415
933.493,0.08305
929.636,0.08215
925.778,0.08132
921.921,0.08056
918.064,0.07991
914.206,0.07936
910.349,0.07896
906.491,0.07865
902.634,0.07826
898.777,0.07807
894.919,0.07804
891.062,0.07805
887.204,0.07826
883.347,0.07847
879.489,0.07866
875.632,0.07881
871.775,0.07879
867.917,0.07867
864.06,0.07846
860.202,0.07815
856.345,0.07789
852.488,0.07771
848.63,0.07787
844.773,0.07821
840.915,0.07915
837.058,0.08077
833.201,0.08362
829.343,0.08915
825.486,0.09945
821.628,0.11919
817.771,0.15475
813.913,0.20168
810.056,0.23173
806.199,0.22241
802.341,0.19472
798.484,0.17261
794.626,0.15404
790.769,0.14389
786.912,0.13919
783.054,0.13733
779.197,0.13726
775.339,0.13820
771.482,0.13972
767.625,0.14013
763.767,0.13948
759.91,0.13784
756.052,0.13473
752.195,0.13174
748.338,0.12854
744.48,0.12355
740.623,0.12394
736.765,0.13183
732.908,0.13798
729.05,0.13951
725.193,0.13917
721.336,0.13862
717.478,0.13824
713.621,0.13815
709.763,0.13831
705.906,0.13861
702.049,0.13920
698.191,0.13992
694.334,0.14069
690.476,0.14163
686.619,0.14236
682.762,0.14280
678.904,0.14617
675.047,0.15156
671.189,0.15300
667.332,0.15367
663.474,0.15320
659.617,0.15450
655.76,0.15585
651.902,0.15811
648.045,0.16058
644.187,0.16393
640.33,0.16744
636.473,0.17138
632.615,0.17594
628.758,0.18019
624.9,0.18600
621.043,0.19132
617.186,0.19649
613.328,0.20189
609.471,0.20467
605.613,0.20294
601.756,0.19796
599.827,0.19168