File: data/FTIR_ATR_DICY Powder_02.dpt
4497.74,0.01858
4493.88,0.01851
4490.03,0.01852
4486.17,0.01853
4482.31,0.01841
4478.45,0.01835
4474.6,0.01834
4470.74,0.01830
4466.88,0.01821
4463.02,0.01819
4459.17,0.01819
4455.31,0.01813
4451.45,0.01799
4447.59,0.01796
4443.74,0.01796
4439.88,0.01796
4436.02,0.01797
4432.16,0.01798
4428.31,0.01790
4424.45,0.01793
4420.59,0.01791
4416.73,0.01783
4412.88,0.01776
4409.02,0.01775
4405.16,0.01776
4401.3,0.01777
4397.45,0.01770
4393.59,0.01763
4389.73,0.01758
4385.88,0.01761
4382.02,0.01757
4378.16,0.01751
4374.3,0.01748
4370.45,0.01747
4366.59,0.01751
4362.73,0.01752
4358.87,0.01744
4355.02,0.01738
4351.16,0.01740
4347.3,0.01739
4343.44,0.01738
4339.59,0.01737
4335.73,0.01734
4331.87,0.01727
4328.01,0.01731
4324.16,0.01725
4320.3,0.01718
4316.44,0.01719
4312.58,0.01724
4308.73,0.01723
4304.87,0.01721
4301.01,0.01718
4297.15,0.01718
4293.3,0.01716
4289.44,0.01712
4285.58,0.01707
4281.72,0.01703
4277.87,0.01705
4274.01,0.01699
4270.15,0.01694
4266.3,0.01695
4262.44,0.01695
4258.58,0.01688
4254.72,0.01683
4250.87,0.01683
4247.01,0.01679
4243.15,0.01680
4239.29,0.01676
4235.44,0.01671
4231.58,0.01676
4227.72,0.01673
4223.86,0.01670
4220.01,0.01665
4216.15,0.01664
4212.29,0.01663
4208.43,0.01660
4204.58,0.01658
4200.72,0.01659
4196.86,0.01656
4193,0.01651
4189.15,0.01647
4185.29,0.01648
4181.43,0.01644
4177.57,0.01643
4173.72,0.01638
4169.86,0.01641
4166,0.01641
4162.15,0.01634
4158.29,0.01634
4154.43,0.01634
4150.57,0.01631
4146.72,0.01634
4142.86,0.01631
4139,0.01623
4135.14,0.01622
4131.29,0.01624
4127.43,0.01621
4123.57,0.01621
4119.71,0.01620
4115.86,0.01616
4112,0.01617
4108.14,0.01612
4104.28,0.01612
4100.43,0.01616
4096.57,0.01615
4092.71,0.01610
4088.85,0.01608
4085,0.01603
4081.14,0.01599
4077.28,0.01602
4073.42,0.01595
4069.57,0.01590
4065.71,0.01587
4061.85,0.01584
4058,0.01583
4054.14,0.01581
4050.28,0.01578
4046.42,0.01579
4042.57,0.01574
4038.71,0.01575
4034.85,0.01570
4030.99,0.01568
4027.14,0.01568
4023.28,0.01564
4019.42,0.01557
4015.56,0.01555
4011.71,0.01557
4007.85,0.01549
4003.99,0.01549
4000.13,0.01551
3996.28,0.01543
3992.42,0.01534
3988.56,0.01535
3984.7,0.01530
3980.85,0.01532
3976.99,0.01530
3973.13,0.01526
3969.27,0.01527
3965.42,0.01524
3961.56,0.01520
3957.7,0.01522
3953.85,0.01513
3949.99,0.01499
3946.13,0.01504
3942.27,0.01495
3938.42,0.01511
3934.56,0.01492
3930.7,0.01476
3926.84,0.01486
3922.99,0.01467
3919.13,0.01435
3915.27,0.01460
3911.41,0.01498
3907.56,0.01441
3903.7,0.01301
3899.84,0.01332
3895.98,0.01447
3892.13,0.01381
3888.27,0.01370
3884.41,0.01333
3880.55,0.01368
3876.7,0.01411
3872.84,0.01321
3868.98,0.01254
3865.12,0.01306
3861.27,0.01368
3857.41,0.01271
3853.55,0.00889
3849.7,0.01286
3845.84,0.01396
3841.98,0.01286
3838.12,0.01117
3834.27,0.01249
3830.41,0.01337
3826.55,0.01354
3822.69,0.01215
3818.84,0.01171
3814.98,0.01202
3811.12,0.01366
3807.26,0.01229
3803.41,0.01173
3799.55,0.01192
3795.69,0.01320
3791.83,0.01379
3787.98,0.01372
3784.12,0.01349
3780.26,0.01313
3776.4,0.01351
3772.55,0.01322
3768.69,0.01263
3764.83,0.01301
3760.97,0.01280
3757.12,0.01249
3753.26,0.01037
3749.4,0.00923
3745.54,0.00896
3741.69,0.01117
3737.83,0.01124
3733.97,0.01058
3730.12,0.01213
3726.26,0.01237
3722.4,0.01240
3718.54,0.01272
3714.69,0.01186
3710.83,0.01077
3706.97,0.01240
3703.11,0.01229
3699.26,0.01244
3695.4,0.01253
3691.54,0.01082
3687.68,0.01009
3683.83,0.01207
3679.97,0.01135
3676.11,0.00890
3672.25,0.00919
3668.4,0.01002
3664.54,0.01170
3660.68,0.01151
3656.82,0.01042
3652.97,0.00989
3649.11,0.00811
3645.25,0.01023
3641.39,0.01105
3637.54,0.01094
3633.68,0.01035
3629.82,0.00820
3625.97,0.00961
3622.11,0.00991
3618.25,0.00907
3614.39,0.00931
3610.54,0.00886
3606.68,0.00933
3602.82,0.00978
3598.96,0.00956
3595.11,0.00927
3591.25,0.00900
3587.39,0.00821
3583.53,0.00893
3579.68,0.00906
3575.82,0.00896
3571.96,0.00871
3568.1,0.00768
3564.25,0.00795
3560.39,0.00834
3556.53,0.00834
3552.67,0.00809
3548.82,0.00790
3544.96,0.00771
3541.1,0.00797
3537.24,0.00793
3533.39,0.00791
3529.53,0.00779
3525.67,0.00768
3521.82,0.00780
3517.96,0.00806
3514.1,0.00819
3510.24,0.00829
3506.39,0.00851
3502.53,0.00875
3498.67,0.00920
3494.81,0.00963
3490.96,0.01020
3487.1,0.01085
3483.24,0.01171
3479.38,0.01282
3475.53,0.01419
3471.67,0.01583
3467.81,0.01771
3463.95,0.02000
3460.1,0.02283
3456.24,0.02650
3452.38,0.03132
3448.52,0.03760
3444.67,0.04576
3440.81,0.05536
3436.95,0.06540
3433.09,0.07468
3429.24,0.08207
3425.38,0.08688
3421.52,0.08888
3417.67,0.08856
3413.81,0.08688
3409.95,0.08479
3406.09,0.08314
3402.24,0.08254
3398.38,0.08341
3394.52,0.08598
3390.66,0.09026
3386.81,0.09575
3382.95,0.10149
3379.09,0.10657
3375.23,0.11009
3371.38,0.11161
3367.52,0.11119
3363.66,0.10956
3359.8,0.10748
3355.95,0.10581
3352.09,0.10562
3348.23,0.10765
3344.37,0.11207
3340.52,0.11822
3336.66,0.12466
3332.8,0.12943
3328.94,0.13071
3325.09,0.12846
3321.23,0.12412
3317.37,0.11914
3313.52,0.11457
3309.66,0.11065
3305.8,0.10715
3301.94,0.10392
3298.09,0.10070
3294.23,0.09749
3290.37,0.09444
3286.51,0.09153
3282.66,0.08857
3278.8,0.08559
3274.94,0.08271
3271.08,0.08000
3267.23,0.07795
3263.37,0.07672
3259.51,0.07674
3255.65,0.07827
3251.8,0.08092
3247.94,0.08327
3244.08,0.08448
3240.22,0.08461
3236.37,0.08414
3232.51,0.08367
3228.65,0.08363
3224.79,0.08418
3220.94,0.08547
3217.08,0.08752
3213.22,0.09026
3209.36,0.09363
3205.51,0.09754
3201.65,0.10171
3197.79,0.10593
3193.94,0.11022
3190.08,0.11455
3186.22,0.11805
3182.36,0.11981
3178.51,0.12014
3174.65,0.12013
3170.79,0.12059
3166.93,0.12209
3163.08,0.12493
3159.22,0.12887
3155.36,0.13326
3151.5,0.13742
3147.65,0.14058
3143.79,0.14194
3139.93,0.14122
3136.07,0.13871
3132.22,0.13477
3128.36,0.12993
3124.5,0.12454
3120.64,0.11882
3116.79,0.11317
3112.93,0.10786
3109.07,0.10281
3105.21,0.09820
3101.36,0.09403
3097.5,0.09050
3093.64,0.08763
3089.79,0.08540
3085.93,0.08361
3082.07,0.08154
3078.21,0.07881
3074.36,0.07596
3070.5,0.07329
3066.64,0.07082
3062.78,0.06864
3058.93,0.06667
3055.07,0.06486
3051.21,0.06325
3047.35,0.06181
3043.5,0.06051
3039.64,0.05934
3035.78,0.05821
3031.92,0.05713
3028.07,0.05623
3024.21,0.05537
3020.35,0.05449
3016.49,0.05344
3012.64,0.05240
3008.78,0.05149
3004.92,0.05053
3001.06,0.04957
2997.21,0.04862
2993.35,0.04774
2989.49,0.04691
2985.64,0.04609
2981.78,0.04520
2977.92,0.04439
2974.06,0.04352
2970.21,0.04265
2966.35,0.04185
2962.49,0.04106
2958.63,0.04040
2954.78,0.03993
2950.92,0.03961
2947.06,0.03943
2943.2,0.03941
2939.35,0.03940
2935.49,0.03941
2931.63,0.03931
2927.77,0.03921
2923.92,0.03922
2920.06,0.03928
2916.2,0.03944
2912.34,0.03993
2908.49,0.04004
2904.63,0.03962
2900.77,0.03882
2896.91,0.03784
2893.06,0.03677
2889.2,0.03574
2885.34,0.03484
2881.49,0.03400
2877.63,0.03329
2873.77,0.03268
2869.91,0.03216
2866.06,0.03172
2862.2,0.03126
2858.34,0.03081
2854.48,0.03028
2850.63,0.02976
2846.77,0.02979
2842.91,0.03009
2839.05,0.03016
2835.2,0.03013
2831.34,0.03007
2827.48,0.03000
2823.62,0.02987
2819.77,0.02971
2815.91,0.02956
2812.05,0.02943
2808.19,0.02935
2804.34,0.02932
2800.48,0.02940
2796.62,0.02952
2792.76,0.02975
2788.91,0.03005
2785.05,0.03049
2781.19,0.03106
2777.34,0.03171
2773.48,0.03243
2769.62,0.03321
2765.76,0.03389
2761.91,0.03447
2758.05,0.03488
2754.19,0.03511
2750.33,0.03520
2746.48,0.03515
2742.62,0.03504
2738.76,0.03480
2734.9,0.03444
2731.05,0.03403
2727.19,0.03352
2723.33,0.03293
2719.47,0.03233
2715.62,0.03170
2711.76,0.03106
2707.9,0.03047
2704.04,0.02993
2700.19,0.02935
2696.33,0.02875
2692.47,0.02820
2688.61,0.02773
2684.76,0.02728
2680.9,0.02691
2677.04,0.02664
2673.19,0.02637
2669.33,0.02618
2665.47,0.02612
2661.61,0.02623
2657.76,0.02634
2653.9,0.02633
2650.04,0.02606
2646.18,0.02569
2642.33,0.02540
2638.47,0.02526
2634.61,0.02513
2630.75,0.02505
2626.9,0.02491
2623.04,0.02482
2619.18,0.02484
2615.32,0.02495
2611.47,0.02516
2607.61,0.02532
2603.75,0.02539
2599.89,0.02551
2596.04,0.02559
2592.18,0.02553
2588.32,0.02541
2584.46,0.02515
2580.61,0.02494
2576.75,0.02477
2572.89,0.02457
2569.03,0.02430
2565.18,0.02389
2561.32,0.02346
2557.46,0.02309
2553.61,0.02277
2549.75,0.02251
2545.89,0.02230
2542.03,0.02215
2538.18,0.02203
2534.32,0.02201
2530.46,0.02210
2526.6,0.02238
2522.75,0.02275
2518.89,0.02318
2515.03,0.02343
2511.17,0.02343
2507.32,0.02337
2503.46,0.02337
2499.6,0.02356
2495.74,0.02401
2491.89,0.02456
2488.03,0.02481
2484.17,0.02474
2480.31,0.02487
2476.46,0.02538
2472.6,0.02597
2468.74,0.02630
2464.88,0.02615
2461.03,0.02552
2457.17,0.02478
2453.31,0.02401
2449.46,0.02343
2445.6,0.02301
2441.74,0.02253
2437.88,0.02189
2434.03,0.02116
2430.17,0.02058
2426.31,0.02008
2422.45,0.01964
2418.6,0.01926
2414.74,0.01902
2410.88,0.01881
2407.02,0.01848
2403.17,0.01823
2399.31,0.01814
2395.45,0.01810
2391.59,0.01815
2387.74,0.01835
2383.88,0.01886
2380.02,0.01988
2376.16,0.02154
2372.31,0.02379
2368.45,0.02610
2364.59,0.02778
2360.73,0.02824
2356.88,0.02688
2353.02,0.02388
2349.16,0.02121
2345.31,0.02137
2341.45,0.02188
2337.59,0.02164
2333.73,0.02107
2329.88,0.02022
2326.02,0.02005
2322.16,0.01976
2318.3,0.01829
2314.45,0.01729
2310.59,0.01653
2306.73,0.01606
2302.87,0.01569
2299.02,0.01548
2295.16,0.01550
2291.3,0.01568
2287.44,0.01600
2283.59,0.01611
2279.73,0.01601
2275.87,0.01621
2272.01,0.01664
2268.16,0.01691
2264.3,0.01673
2260.44,0.01664
2256.58,0.01655
2252.73,0.01616
2248.87,0.01639
2245.01,0.01697
2241.16,0.01788
2237.3,0.01915
2233.44,0.02133
2229.58,0.02515
2225.73,0.03219
2221.87,0.04559
2218.01,0.06842
2214.15,0.09840
2210.3,0.12583
2206.44,0.14065
2202.58,0.14232
2198.72,0.13527
2194.87,0.12380
2191.01,0.11113
2187.15,0.09960
2183.29,0.09248
2179.44,0.09384
2175.58,0.10759
2171.72,0.13298
2167.86,0.16275
2164.01,0.18473
2160.15,0.19539
2156.29,0.19395
2152.43,0.18589
2148.58,0.17282
2144.72,0.15896
2140.86,0.14661
2137.01,0.13463
2133.15,0.12287
2129.29,0.11330
2125.43,0.10546
2121.58,0.09985
2117.72,0.10074
2113.86,0.10124
2110,0.09296
2106.15,0.08569
2102.29,0.08059
2098.43,0.07658
2094.57,0.07256
2090.72,0.06959
2086.86,0.06726
2083,0.06518
2079.14,0.06341
2075.29,0.06169
2071.43,0.06014
2067.57,0.05877
2063.71,0.05742
2059.86,0.05629
2056,0.05570
2052.14,0.05583
2048.28,0.05633
2044.43,0.05601
2040.57,0.05621
2036.71,0.05659
2032.85,0.05595
2029,0.05489
2025.14,0.05350
2021.28,0.05199
2017.43,0.05035
2013.57,0.04895
2009.71,0.04781
2005.85,0.04589
2002,0.04429
1998.14,0.04335
1994.28,0.04258
1990.42,0.04190
1986.57,0.04154
1982.71,0.04183
1978.85,0.04190
1974.99,0.03950
1971.14,0.03805
1967.28,0.03710
1963.42,0.03634
1959.56,0.03500
1955.71,0.03379
1951.85,0.03301
1947.99,0.03220
1944.13,0.03103
1940.28,0.03022
1936.42,0.02952
1932.56,0.02881
1928.7,0.02808
1924.85,0.02721
1920.99,0.02646
1917.13,0.02582
1913.28,0.02556
1909.42,0.02482
1905.56,0.02439
1901.7,0.02395
1897.85,0.02338
1893.99,0.02282
1890.13,0.02218
1886.27,0.02196
1882.42,0.02175
1878.56,0.02147
1874.7,0.02128
1870.84,0.02094
1866.99,0.02160
1863.13,0.02269
1859.27,0.02200
1855.41,0.02074
1851.56,0.01968
1847.7,0.01854
1843.84,0.01717
1839.98,0.01766
1836.13,0.01718
1832.27,0.01633
1828.41,0.01553
1824.55,0.01540
1820.7,0.01544
1816.84,0.01475
1812.98,0.01428
1809.13,0.01399
1805.27,0.01384
1801.41,0.01319
1797.55,0.01329
1793.7,0.01250
1789.84,0.01314
1785.98,0.01400
1782.12,0.01453
1778.27,0.01532
1774.41,0.01483
1770.55,0.01501
1766.69,0.01639
1762.84,0.01597
1758.98,0.01545
1755.12,0.01472
1751.26,0.01278
1747.41,0.01250
1743.55,0.01203
1739.69,0.01094
1735.83,0.00904
1731.98,0.00896
1728.12,0.01090
1724.26,0.01093
1720.4,0.00943
1716.55,0.00759
1712.69,0.01016
1708.83,0.01068
1704.98,0.00997
1701.12,0.00776
1697.26,0.00836
1693.4,0.01209
1689.55,0.01511
1685.69,0.01581
1681.83,0.02522
1677.97,0.03857
1674.12,0.04799
1670.26,0.06141
1666.4,0.08044
1662.54,0.09864
1658.69,0.11119
1654.83,0.11051
1650.97,0.12049
1647.11,0.14447
1643.26,0.17656
1639.4,0.20221
1635.54,0.21288
1631.68,0.22060
1627.83,0.22318
1623.97,0.21764
1620.11,0.20354
1616.25,0.18302
1612.4,0.16567
1608.54,0.14943
1604.68,0.13813
1600.83,0.13215
1596.97,0.13214
1593.11,0.14006
1589.25,0.14998
1585.4,0.15642
1581.54,0.16255
1577.68,0.16783
1573.82,0.17664
1569.97,0.18592
1566.11,0.19585
1562.25,0.20070
1558.39,0.19803
1554.54,0.19666
1550.68,0.19024
1546.82,0.18117
1542.96,0.16941
1539.11,0.15919
1535.25,0.15395
1531.39,0.14699
1527.53,0.14093
1523.68,0.13715
1519.82,0.14276
1515.96,0.16440
1512.1,0.19535
1508.25,0.22058
1504.39,0.23604
1500.53,0.22618
1496.68,0.20140
1492.82,0.18353
1488.96,0.17122
1485.1,0.16458
1481.25,0.15795
1477.39,0.15089
1473.53,0.14378
1469.67,0.14051
1465.82,0.13611
1461.96,0.13192
1458.1,0.12553
1454.24,0.12418
1450.39,0.12363
1446.53,0.12177
1442.67,0.11992
1438.81,0.11598
1434.96,0.11208
1431.1,0.10948
1427.24,0.10629
1423.38,0.10221
1419.53,0.09705
1415.67,0.09509
1411.81,0.09291
1407.95,0.09042
1404.1,0.08813
1400.24,0.08603
1396.38,0.08399
1392.52,0.08306
1388.67,0.08183
1384.81,0.08101
1380.95,0.08034
1377.1,0.07927
1373.24,0.07837
1369.38,0.07808
1365.52,0.07736
1361.67,0.07656
1357.81,0.07646
1353.95,0.07603
1350.09,0.07568
1346.24,0.07566
1342.38,0.07612
1338.52,0.07730
1334.66,0.07835
1330.81,0.07737
1326.95,0.07561
1323.09,0.07400
1319.23,0.07260
1315.38,0.07147
1311.52,0.07042
1307.66,0.06940
1303.8,0.06835
1299.95,0.06734
1296.09,0.06639
1292.23,0.06550
1288.37,0.06470
1284.52,0.06404
1280.66,0.06360
1276.8,0.06377
1272.95,0.06529
1269.09,0.07004
1265.23,0.08231
1261.37,0.10762
1257.52,0.14244
1253.66,0.16584
1249.8,0.16545
1245.94,0.15277
1242.09,0.13986
1238.23,0.12983
1234.37,0.12229
1230.51,0.11658
1226.66,0.11229
1222.8,0.10903
1218.94,0.10644
1215.08,0.10444
1211.23,0.10294
1207.37,0.10179
1203.51,0.10099
1199.65,0.10040
1195.8,0.10002
1191.94,0.09984
1188.08,0.09974
1184.22,0.09950
1180.37,0.09905
1176.51,0.09864
1172.65,0.09803
1168.8,0.09731
1164.94,0.09664
1161.08,0.09621
1157.22,0.09605
1153.37,0.09602
1149.51,0.09609
1145.65,0.09629
1141.79,0.09660
1137.94,0.09696
1134.08,0.09737
1130.22,0.09785
1126.36,0.09849
1122.51,0.09947
1118.65,0.10085
1114.79,0.10285
1110.93,0.10548
1107.08,0.10922
1103.22,0.11501
1099.36,0.12164
1095.5,0.12605
1091.65,0.12747
1087.79,0.12729
1083.93,0.12663
1080.07,0.12587
1076.22,0.12514
1072.36,0.12442
1068.5,0.12372
1064.65,0.12296
1060.79,0.12222
1056.93,0.12138
1053.07,0.12041
1049.22,0.11943
1045.36,0.11834
1041.5,0.11705
1037.64,0.11578
1033.79,0.11473
1029.93,0.11376
1026.07,0.11273
1022.21,0.11170
1018.36,0.11050
1014.5,0.10938
1010.64,0.10814
1006.78,0.10697
1002.93,0.10598
999.069,0.10475
995.212,0.10317
991.354,0.10170
987.497,0.10045
983.64,0.09929
979.782,0.09815
975.925,0.09710
972.067,0.09613
968.21,0.09511
964.352,0.09406
960.495,0.09300
956.638,0.09190
952.78,0.09075
948.923,0.08972
945.065,0.08925
941.208,0.09113
937.351,0.10348
933.493,0.15123
929.636,0.21940
925.778,0.20421
921.921,0.15628
918.064,0.13024
914.206,0.11664
910.349,0.10868
906.491,0.10344
902.634,0.09952
898.777,0.09633
894.919,0.09357
891.062,0.09102
887.204,0.08866
883.347,0.08652
879.489,0.08435
875.632,0.08225
871.775,0.08021
867.917,0.07820
864.06,0.07635
860.202,0.07455
856.345,0.07281
852.488,0.07117
848.63,0.06963
844.773,0.06825
840.915,0.06700
837.058,0.06571
833.201,0.06456
829.343,0.06347
825.486,0.06236
821.628,0.06132
817.771,0.06047
813.913,0.05964
810.056,0.05885
806.199,0.05819
802.341,0.05757
798.484,0.05701
794.626,0.05649
790.769,0.05614
786.912,0.05570
783.054,0.05549
779.197,0.05549
775.339,0.05608
771.482,0.05690
767.625,0.05792
763.767,0.05996
759.91,0.06286
756.052,0.06569
752.195,0.06759
748.338,0.06776
744.48,0.06676
740.623,0.06511
736.765,0.06348
732.908,0.06279
729.05,0.06742
725.193,0.08217
721.336,0.10004
717.478,0.09619
713.621,0.07935
709.763,0.07194
705.906,0.06923
702.049,0.06810
698.191,0.06734
694.334,0.06715
690.476,0.06795
686.619,0.06980
682.762,0.07336
678.904,0.08070
675.047,0.09935
671.189,0.14305
667.332,0.17512
663.474,0.13903
659.617,0.10546
655.76,0.09270
651.902,0.08764
648.045,0.08588
644.187,0.08591
640.33,0.08752
636.473,0.08979
632.615,0.09246
628.758,0.09569
624.9,0.09988
621.043,0.10570
617.186,0.11081
613.328,0.11673
609.471,0.12368
605.613,0.12922
601.756,0.13631
599.827,0.13970