File: data/FTIR_ATR_DICY Powder_01.dpt
4497.74,0.02178
4493.88,0.02176
4490.03,0.02184
4486.17,0.02178
4482.31,0.02170
4478.45,0.02163
4474.6,0.02156
4470.74,0.02150
4466.88,0.02149
4463.02,0.02140
4459.17,0.02138
4455.31,0.02132
4451.45,0.02123
4447.59,0.02123
4443.74,0.02123
4439.88,0.02122
4436.02,0.02121
4432.16,0.02115
4428.31,0.02108
4424.45,0.02108
4420.59,0.02108
4416.73,0.02109
4412.88,0.02102
4409.02,0.02099
4405.16,0.02101
4401.3,0.02099
4397.45,0.02094
4393.59,0.02083
4389.73,0.02075
4385.88,0.02082
4382.02,0.02082
4378.16,0.02074
4374.3,0.02069
4370.45,0.02070
4366.59,0.02070
4362.73,0.02069
4358.87,0.02062
4355.02,0.02060
4351.16,0.02059
4347.3,0.02060
4343.44,0.02057
4339.59,0.02052
4335.73,0.02053
4331.87,0.02053
4328.01,0.02051
4324.16,0.02045
4320.3,0.02031
4316.44,0.02036
4312.58,0.02040
4308.73,0.02040
4304.87,0.02041
4301.01,0.02034
4297.15,0.02031
4293.3,0.02033
4289.44,0.02030
4285.58,0.02025
4281.72,0.02016
4277.87,0.02013
4274.01,0.02009
4270.15,0.02008
4266.3,0.02008
4262.44,0.02008
4258.58,0.02001
4254.72,0.01998
4250.87,0.01998
4247.01,0.01992
4243.15,0.01996
4239.29,0.01989
4235.44,0.01986
4231.58,0.01990
4227.72,0.01989
4223.86,0.01982
4220.01,0.01975
4216.15,0.01976
4212.29,0.01976
4208.43,0.01975
4204.58,0.01967
4200.72,0.01968
4196.86,0.01966
4193,0.01960
4189.15,0.01959
4185.29,0.01958
4181.43,0.01953
4177.57,0.01951
4173.72,0.01951
4169.86,0.01952
4166,0.01948
4162.15,0.01941
4158.29,0.01939
4154.43,0.01940
4150.57,0.01936
4146.72,0.01938
4142.86,0.01933
4139,0.01929
4135.14,0.01925
4131.29,0.01923
4127.43,0.01921
4123.57,0.01921
4119.71,0.01925
4115.86,0.01923
4112,0.01918
4108.14,0.01916
4104.28,0.01916
4100.43,0.01917
4096.57,0.01914
4092.71,0.01909
4088.85,0.01907
4085,0.01905
4081.14,0.01902
4077.28,0.01899
4073.42,0.01897
4069.57,0.01893
4065.71,0.01887
4061.85,0.01884
4058,0.01877
4054.14,0.01877
4050.28,0.01873
4046.42,0.01869
4042.57,0.01865
4038.71,0.01867
4034.85,0.01862
4030.99,0.01864
4027.14,0.01857
4023.28,0.01853
4019.42,0.01852
4015.56,0.01843
4011.71,0.01843
4007.85,0.01840
4003.99,0.01842
4000.13,0.01838
3996.28,0.01832
3992.42,0.01823
3988.56,0.01826
3984.7,0.01822
3980.85,0.01820
3976.99,0.01813
3973.13,0.01811
3969.27,0.01813
3965.42,0.01813
3961.56,0.01805
3957.7,0.01807
3953.85,0.01801
3949.99,0.01781
3946.13,0.01788
3942.27,0.01782
3938.42,0.01800
3934.56,0.01777
3930.7,0.01753
3926.84,0.01765
3922.99,0.01753
3919.13,0.01724
3915.27,0.01738
3911.41,0.01777
3907.56,0.01724
3903.7,0.01582
3899.84,0.01607
3895.98,0.01721
3892.13,0.01656
3888.27,0.01647
3884.41,0.01611
3880.55,0.01649
3876.7,0.01689
3872.84,0.01594
3868.98,0.01525
3865.12,0.01578
3861.27,0.01639
3857.41,0.01541
3853.55,0.01158
3849.7,0.01552
3845.84,0.01665
3841.98,0.01555
3838.12,0.01389
3834.27,0.01511
3830.41,0.01599
3826.55,0.01614
3822.69,0.01482
3818.84,0.01435
3814.98,0.01464
3811.12,0.01627
3807.26,0.01489
3803.41,0.01431
3799.55,0.01446
3795.69,0.01577
3791.83,0.01635
3787.98,0.01628
3784.12,0.01603
3780.26,0.01570
3776.4,0.01603
3772.55,0.01573
3768.69,0.01512
3764.83,0.01550
3760.97,0.01527
3757.12,0.01498
3753.26,0.01282
3749.4,0.01168
3745.54,0.01140
3741.69,0.01361
3737.83,0.01366
3733.97,0.01293
3730.12,0.01449
3726.26,0.01470
3722.4,0.01473
3718.54,0.01506
3714.69,0.01422
3710.83,0.01312
3706.97,0.01464
3703.11,0.01451
3699.26,0.01469
3695.4,0.01473
3691.54,0.01300
3687.68,0.01226
3683.83,0.01424
3679.97,0.01351
3676.11,0.01094
3672.25,0.01128
3668.4,0.01215
3664.54,0.01379
3660.68,0.01358
3656.82,0.01240
3652.97,0.01184
3649.11,0.01007
3645.25,0.01221
3641.39,0.01301
3637.54,0.01282
3633.68,0.01220
3629.82,0.00999
3625.97,0.01139
3622.11,0.01168
3618.25,0.01083
3614.39,0.01100
3610.54,0.01047
3606.68,0.01092
3602.82,0.01135
3598.96,0.01110
3595.11,0.01077
3591.25,0.01047
3587.39,0.00968
3583.53,0.01037
3579.68,0.01041
3575.82,0.01028
3571.96,0.00999
3568.1,0.00890
3564.25,0.00920
3560.39,0.00953
3556.53,0.00950
3552.67,0.00919
3548.82,0.00895
3544.96,0.00872
3541.1,0.00892
3537.24,0.00883
3533.39,0.00879
3529.53,0.00857
3525.67,0.00847
3521.82,0.00861
3517.96,0.00877
3514.1,0.00888
3510.24,0.00898
3506.39,0.00913
3502.53,0.00932
3498.67,0.00975
3494.81,0.01016
3490.96,0.01068
3487.1,0.01129
3483.24,0.01211
3479.38,0.01320
3475.53,0.01455
3471.67,0.01612
3467.81,0.01795
3463.95,0.02018
3460.1,0.02291
3456.24,0.02643
3452.38,0.03107
3448.52,0.03709
3444.67,0.04498
3440.81,0.05431
3436.95,0.06407
3433.09,0.07323
3429.24,0.08067
3425.38,0.08579
3421.52,0.08820
3417.67,0.08838
3413.81,0.08715
3409.95,0.08537
3406.09,0.08391
3402.24,0.08334
3398.38,0.08411
3394.52,0.08651
3390.66,0.09052
3386.81,0.09571
3382.95,0.10126
3379.09,0.10615
3375.23,0.10952
3371.38,0.11093
3367.52,0.11054
3363.66,0.10893
3359.8,0.10684
3355.95,0.10520
3352.09,0.10504
3348.23,0.10707
3344.37,0.11157
3340.52,0.11774
3336.66,0.12426
3332.8,0.12918
3328.94,0.13066
3325.09,0.12866
3321.23,0.12456
3317.37,0.11987
3313.52,0.11560
3309.66,0.11194
3305.8,0.10863
3301.94,0.10554
3298.09,0.10240
3294.23,0.09927
3290.37,0.09627
3286.51,0.09348
3282.66,0.09067
3278.8,0.08774
3274.94,0.08493
3271.08,0.08231
3267.23,0.08031
3263.37,0.07902
3259.51,0.07900
3255.65,0.08038
3251.8,0.08283
3247.94,0.08517
3244.08,0.08638
3240.22,0.08659
3236.37,0.08620
3232.51,0.08576
3228.65,0.08575
3224.79,0.08628
3220.94,0.08752
3217.08,0.08949
3213.22,0.09210
3209.36,0.09536
3205.51,0.09916
3201.65,0.10318
3197.79,0.10727
3193.94,0.11144
3190.08,0.11562
3186.22,0.11901
3182.36,0.12086
3178.51,0.12125
3174.65,0.12128
3170.79,0.12167
3166.93,0.12307
3163.08,0.12578
3159.22,0.12954
3155.36,0.13380
3151.5,0.13785
3147.65,0.14099
3143.79,0.14241
3139.93,0.14186
3136.07,0.13960
3132.22,0.13600
3128.36,0.13152
3124.5,0.12644
3120.64,0.12114
3116.79,0.11586
3112.93,0.11081
3109.07,0.10603
3105.21,0.10165
3101.36,0.09771
3097.5,0.09432
3093.64,0.09156
3089.79,0.08947
3085.93,0.08780
3082.07,0.08588
3078.21,0.08330
3074.36,0.08059
3070.5,0.07800
3066.64,0.07562
3062.78,0.07349
3058.93,0.07155
3055.07,0.06976
3051.21,0.06816
3047.35,0.06674
3043.5,0.06546
3039.64,0.06429
3035.78,0.06315
3031.92,0.06207
3028.07,0.06117
3024.21,0.06031
3020.35,0.05940
3016.49,0.05840
3012.64,0.05736
3008.78,0.05644
3004.92,0.05550
3001.06,0.05453
2997.21,0.05360
2993.35,0.05271
2989.49,0.05185
2985.64,0.05102
2981.78,0.05013
2977.92,0.04927
2974.06,0.04842
2970.21,0.04755
2966.35,0.04674
2962.49,0.04593
2958.63,0.04527
2954.78,0.04475
2950.92,0.04439
2947.06,0.04419
2943.2,0.04412
2939.35,0.04409
2935.49,0.04408
2931.63,0.04396
2927.77,0.04385
2923.92,0.04385
2920.06,0.04387
2916.2,0.04401
2912.34,0.04447
2908.49,0.04459
2904.63,0.04419
2900.77,0.04339
2896.91,0.04245
2893.06,0.04142
2889.2,0.04043
2885.34,0.03953
2881.49,0.03868
2877.63,0.03796
2873.77,0.03733
2869.91,0.03681
2866.06,0.03635
2862.2,0.03588
2858.34,0.03545
2854.48,0.03492
2850.63,0.03437
2846.77,0.03435
2842.91,0.03462
2839.05,0.03466
2835.2,0.03460
2831.34,0.03452
2827.48,0.03440
2823.62,0.03424
2819.77,0.03407
2815.91,0.03387
2812.05,0.03372
2808.19,0.03361
2804.34,0.03354
2800.48,0.03356
2796.62,0.03365
2792.76,0.03386
2788.91,0.03414
2785.05,0.03451
2781.19,0.03500
2777.34,0.03559
2773.48,0.03626
2769.62,0.03697
2765.76,0.03764
2761.91,0.03820
2758.05,0.03862
2754.19,0.03885
2750.33,0.03896
2746.48,0.03894
2742.62,0.03882
2738.76,0.03859
2734.9,0.03824
2731.05,0.03784
2727.19,0.03736
2723.33,0.03680
2719.47,0.03624
2715.62,0.03563
2711.76,0.03505
2707.9,0.03448
2704.04,0.03395
2700.19,0.03337
2696.33,0.03281
2692.47,0.03224
2688.61,0.03171
2684.76,0.03125
2680.9,0.03088
2677.04,0.03058
2673.19,0.03032
2669.33,0.03011
2665.47,0.03005
2661.61,0.03015
2657.76,0.03028
2653.9,0.03030
2650.04,0.03003
2646.18,0.02965
2642.33,0.02937
2638.47,0.02921
2634.61,0.02906
2630.75,0.02891
2626.9,0.02875
2623.04,0.02864
2619.18,0.02863
2615.32,0.02878
2611.47,0.02900
2607.61,0.02915
2603.75,0.02922
2599.89,0.02930
2596.04,0.02938
2592.18,0.02931
2588.32,0.02920
2584.46,0.02894
2580.61,0.02870
2576.75,0.02851
2572.89,0.02827
2569.03,0.02796
2565.18,0.02753
2561.32,0.02710
2557.46,0.02672
2553.61,0.02634
2549.75,0.02604
2545.89,0.02583
2542.03,0.02562
2538.18,0.02547
2534.32,0.02542
2530.46,0.02549
2526.6,0.02571
2522.75,0.02602
2518.89,0.02639
2515.03,0.02664
2511.17,0.02669
2507.32,0.02662
2503.46,0.02658
2499.6,0.02674
2495.74,0.02715
2491.89,0.02769
2488.03,0.02792
2484.17,0.02786
2480.31,0.02800
2476.46,0.02848
2472.6,0.02910
2468.74,0.02954
2464.88,0.02942
2461.03,0.02871
2457.17,0.02792
2453.31,0.02719
2449.46,0.02653
2445.6,0.02604
2441.74,0.02547
2437.88,0.02478
2434.03,0.02405
2430.17,0.02344
2426.31,0.02287
2422.45,0.02236
2418.6,0.02192
2414.74,0.02158
2410.88,0.02132
2407.02,0.02096
2403.17,0.02067
2399.31,0.02050
2395.45,0.02036
2391.59,0.02039
2387.74,0.02059
2383.88,0.02100
2380.02,0.02186
2376.16,0.02330
2372.31,0.02520
2368.45,0.02715
2364.59,0.02860
2360.73,0.02901
2356.88,0.02788
2353.02,0.02531
2349.16,0.02288
2345.31,0.02270
2341.45,0.02284
2337.59,0.02246
2333.73,0.02180
2329.88,0.02096
2326.02,0.02083
2322.16,0.02063
2318.3,0.01927
2314.45,0.01832
2310.59,0.01761
2306.73,0.01712
2302.87,0.01672
2299.02,0.01647
2295.16,0.01640
2291.3,0.01653
2287.44,0.01675
2283.59,0.01678
2279.73,0.01667
2275.87,0.01676
2272.01,0.01706
2268.16,0.01727
2264.3,0.01702
2260.44,0.01691
2256.58,0.01676
2252.73,0.01624
2248.87,0.01637
2245.01,0.01686
2241.16,0.01765
2237.3,0.01880
2233.44,0.02072
2229.58,0.02425
2225.73,0.03085
2221.87,0.04354
2218.01,0.06549
2214.15,0.09470
2210.3,0.12118
2206.44,0.13510
2202.58,0.13690
2198.72,0.13093
2194.87,0.12071
2191.01,0.10902
2187.15,0.09793
2183.29,0.09043
2179.44,0.09086
2175.58,0.10352
2171.72,0.12787
2167.86,0.15619
2164.01,0.17621
2160.15,0.18485
2156.29,0.18327
2152.43,0.17754
2148.58,0.16781
2144.72,0.15674
2140.86,0.14691
2137.01,0.13731
2133.15,0.12729
2129.29,0.11898
2125.43,0.11191
2121.58,0.10633
2117.72,0.10655
2113.86,0.10755
2110,0.10039
2106.15,0.09362
2102.29,0.08868
2098.43,0.08469
2094.57,0.08078
2090.72,0.07754
2086.86,0.07519
2083,0.07299
2079.14,0.07109
2075.29,0.06929
2071.43,0.06769
2067.57,0.06613
2063.71,0.06463
2059.86,0.06344
2056,0.06261
2052.14,0.06251
2048.28,0.06283
2044.43,0.06235
2040.57,0.06243
2036.71,0.06273
2032.85,0.06199
2029,0.06081
2025.14,0.05948
2021.28,0.05797
2017.43,0.05634
2013.57,0.05483
2009.71,0.05352
2005.85,0.05169
2002,0.05020
1998.14,0.04922
1994.28,0.04834
1990.42,0.04769
1986.57,0.04725
1982.71,0.04712
1978.85,0.04709
1974.99,0.04489
1971.14,0.04335
1967.28,0.04223
1963.42,0.04130
1959.56,0.03975
1955.71,0.03860
1951.85,0.03789
1947.99,0.03703
1944.13,0.03585
1940.28,0.03499
1936.42,0.03420
1932.56,0.03334
1928.7,0.03248
1924.85,0.03163
1920.99,0.03083
1917.13,0.03010
1913.28,0.02971
1909.42,0.02896
1905.56,0.02841
1901.7,0.02781
1897.85,0.02714
1893.99,0.02652
1890.13,0.02581
1886.27,0.02550
1882.42,0.02514
1878.56,0.02471
1874.7,0.02447
1870.84,0.02407
1866.99,0.02471
1863.13,0.02590
1859.27,0.02520
1855.41,0.02381
1851.56,0.02255
1847.7,0.02131
1843.84,0.01983
1839.98,0.02018
1836.13,0.01967
1832.27,0.01869
1828.41,0.01778
1824.55,0.01758
1820.7,0.01749
1816.84,0.01668
1812.98,0.01608
1809.13,0.01568
1805.27,0.01547
1801.41,0.01470
1797.55,0.01472
1793.7,0.01386
1789.84,0.01441
1785.98,0.01521
1782.12,0.01568
1778.27,0.01647
1774.41,0.01597
1770.55,0.01616
1766.69,0.01746
1762.84,0.01700
1758.98,0.01642
1755.12,0.01558
1751.26,0.01348
1747.41,0.01316
1743.55,0.01261
1739.69,0.01142
1735.83,0.00946
1731.98,0.00930
1728.12,0.01121
1724.26,0.01119
1720.4,0.00964
1716.55,0.00774
1712.69,0.01024
1708.83,0.01072
1704.98,0.01000
1701.12,0.00770
1697.26,0.00822
1693.4,0.01186
1689.55,0.01477
1685.69,0.01528
1681.83,0.02440
1677.97,0.03743
1674.12,0.04647
1670.26,0.05908
1666.4,0.07703
1662.54,0.09425
1658.69,0.10683
1654.83,0.10746
1650.97,0.11850
1647.11,0.14193
1643.26,0.17220
1639.4,0.19575
1635.54,0.20427
1631.68,0.21093
1627.83,0.21400
1623.97,0.21032
1620.11,0.19881
1616.25,0.18081
1612.4,0.16552
1608.54,0.15061
1604.68,0.13995
1600.83,0.13408
1596.97,0.13376
1593.11,0.14095
1589.25,0.14961
1585.4,0.15435
1581.54,0.15852
1577.68,0.16176
1573.82,0.16854
1569.97,0.17592
1566.11,0.18430
1562.25,0.18834
1558.39,0.18601
1554.54,0.18613
1550.68,0.18161
1546.82,0.17444
1542.96,0.16446
1539.11,0.15592
1535.25,0.15224
1531.39,0.14656
1527.53,0.14153
1523.68,0.13824
1519.82,0.14380
1515.96,0.16481
1512.1,0.19516
1508.25,0.22018
1504.39,0.23548
1500.53,0.22613
1496.68,0.20234
1492.82,0.18532
1488.96,0.17356
1485.1,0.16742
1481.25,0.16129
1477.39,0.15465
1473.53,0.14794
1469.67,0.14505
1465.82,0.14102
1461.96,0.13709
1458.1,0.13080
1454.24,0.12947
1450.39,0.12904
1446.53,0.12741
1442.67,0.12594
1438.81,0.12239
1434.96,0.11887
1431.1,0.11661
1427.24,0.11365
1423.38,0.10981
1419.53,0.10479
1415.67,0.10292
1411.81,0.10076
1407.95,0.09827
1404.1,0.09590
1400.24,0.09373
1396.38,0.09161
1392.52,0.09061
1388.67,0.08924
1384.81,0.08833
1380.95,0.08756
1377.1,0.08634
1373.24,0.08532
1369.38,0.08493
1365.52,0.08412
1361.67,0.08319
1357.81,0.08298
1353.95,0.08242
1350.09,0.08196
1346.24,0.08177
1342.38,0.08206
1338.52,0.08317
1334.66,0.08424
1330.81,0.08330
1326.95,0.08154
1323.09,0.07988
1319.23,0.07838
1315.38,0.07714
1311.52,0.07596
1307.66,0.07479
1303.8,0.07358
1299.95,0.07239
1296.09,0.07122
1292.23,0.07007
1288.37,0.06897
1284.52,0.06797
1280.66,0.06710
1276.8,0.06672
1272.95,0.06754
1269.09,0.07136
1265.23,0.08224
1261.37,0.10574
1257.52,0.13906
1253.66,0.16282
1249.8,0.16500
1245.94,0.15515
1242.09,0.14402
1238.23,0.13499
1234.37,0.12799
1230.51,0.12257
1226.66,0.11841
1222.8,0.11519
1218.94,0.11261
1215.08,0.11057
1211.23,0.10902
1207.37,0.10783
1203.51,0.10698
1199.65,0.10631
1195.8,0.10589
1191.94,0.10567
1188.08,0.10549
1184.22,0.10522
1180.37,0.10480
1176.51,0.10431
1172.65,0.10373
1168.8,0.10294
1164.94,0.10226
1161.08,0.10177
1157.22,0.10151
1153.37,0.10139
1149.51,0.10137
1145.65,0.10148
1141.79,0.10174
1137.94,0.10198
1134.08,0.10222
1130.22,0.10251
1126.36,0.10303
1122.51,0.10382
1118.65,0.10496
1114.79,0.10659
1110.93,0.10882
1107.08,0.11211
1103.22,0.11740
1099.36,0.12384
1095.5,0.12850
1091.65,0.13037
1087.79,0.13056
1083.93,0.13017
1080.07,0.12973
1076.22,0.12922
1072.36,0.12867
1068.5,0.12814
1064.65,0.12749
1060.79,0.12683
1056.93,0.12610
1053.07,0.12522
1049.22,0.12430
1045.36,0.12331
1041.5,0.12216
1037.64,0.12100
1033.79,0.11996
1029.93,0.11897
1026.07,0.11802
1022.21,0.11707
1018.36,0.11599
1014.5,0.11485
1010.64,0.11366
1006.78,0.11259
1002.93,0.11166
999.069,0.11045
995.212,0.10900
991.354,0.10759
987.497,0.10636
983.64,0.10519
979.782,0.10416
975.925,0.10321
972.067,0.10223
968.21,0.10119
964.352,0.10020
960.495,0.09920
956.638,0.09814
952.78,0.09703
948.923,0.09607
945.065,0.09547
941.208,0.09690
937.351,0.10815
933.493,0.15367
929.636,0.21993
925.778,0.20627
921.921,0.16077
918.064,0.13611
914.206,0.12327
910.349,0.11564
906.491,0.11061
902.634,0.10688
898.777,0.10380
894.919,0.10111
891.062,0.09867
887.204,0.09645
883.347,0.09434
879.489,0.09219
875.632,0.09014
871.775,0.08817
867.917,0.08622
864.06,0.08439
860.202,0.08264
856.345,0.08096
852.488,0.07929
848.63,0.07775
844.773,0.07634
840.915,0.07495
837.058,0.07362
833.201,0.07243
829.343,0.07134
825.486,0.07015
821.628,0.06907
817.771,0.06809
813.913,0.06721
810.056,0.06634
806.199,0.06560
802.341,0.06485
798.484,0.06419
794.626,0.06357
790.769,0.06311
786.912,0.06253
783.054,0.06211
779.197,0.06200
775.339,0.06229
771.482,0.06291
767.625,0.06390
763.767,0.06574
759.91,0.06850
756.052,0.07139
752.195,0.07343
748.338,0.07394
744.48,0.07303
740.623,0.07134
736.765,0.06960
732.908,0.06863
729.05,0.07271
725.193,0.08723
721.336,0.10457
717.478,0.10085
713.621,0.08472
709.763,0.07755
705.906,0.07483
702.049,0.07356
698.191,0.07268
694.334,0.07238
690.476,0.07301
686.619,0.07460
682.762,0.07774
678.904,0.08470
675.047,0.10258
671.189,0.14452
667.332,0.17499
663.474,0.14084
659.617,0.10906
655.76,0.09663
651.902,0.09157
648.045,0.08973
644.187,0.08966
640.33,0.09076
636.473,0.09231
632.615,0.09480
628.758,0.09763
624.9,0.10082
621.043,0.10605
617.186,0.11107
613.328,0.11668
609.471,0.12273
605.613,0.12781
601.756,0.13399
599.827,0.13688