File: data/FTIR_ATR_After TGA 30-300C 10K-min_02.dpt
4497.74,0.02212
4493.88,0.02212
4490.03,0.02211
4486.17,0.02210
4482.31,0.02206
4478.45,0.02199
4474.6,0.02200
4470.74,0.02198
4466.88,0.02192
4463.02,0.02187
4459.17,0.02183
4455.31,0.02182
4451.45,0.02179
4447.59,0.02180
4443.74,0.02179
4439.88,0.02176
4436.02,0.02169
4432.16,0.02167
4428.31,0.02157
4424.45,0.02156
4420.59,0.02158
4416.73,0.02151
4412.88,0.02149
4409.02,0.02151
4405.16,0.02145
4401.3,0.02138
4397.45,0.02130
4393.59,0.02133
4389.73,0.02133
4385.88,0.02135
4382.02,0.02130
4378.16,0.02127
4374.3,0.02121
4370.45,0.02120
4366.59,0.02117
4362.73,0.02116
4358.87,0.02113
4355.02,0.02111
4351.16,0.02104
4347.3,0.02104
4343.44,0.02107
4339.59,0.02104
4335.73,0.02098
4331.87,0.02096
4328.01,0.02096
4324.16,0.02090
4320.3,0.02082
4316.44,0.02081
4312.58,0.02080
4308.73,0.02078
4304.87,0.02079
4301.01,0.02076
4297.15,0.02072
4293.3,0.02071
4289.44,0.02069
4285.58,0.02063
4281.72,0.02058
4277.87,0.02059
4274.01,0.02054
4270.15,0.02052
4266.3,0.02055
4262.44,0.02050
4258.58,0.02042
4254.72,0.02042
4250.87,0.02046
4247.01,0.02045
4243.15,0.02042
4239.29,0.02035
4235.44,0.02032
4231.58,0.02034
4227.72,0.02032
4223.86,0.02031
4220.01,0.02028
4216.15,0.02029
4212.29,0.02027
4208.43,0.02023
4204.58,0.02025
4200.72,0.02026
4196.86,0.02023
4193,0.02027
4189.15,0.02027
4185.29,0.02021
4181.43,0.02019
4177.57,0.02017
4173.72,0.02017
4169.86,0.02010
4166,0.02006
4162.15,0.02002
4158.29,0.01999
4154.43,0.02001
4150.57,0.01999
4146.72,0.02001
4142.86,0.01993
4139,0.01990
4135.14,0.01990
4131.29,0.01989
4127.43,0.01989
4123.57,0.01983
4119.71,0.01982
4115.86,0.01976
4112,0.01975
4108.14,0.01972
4104.28,0.01969
4100.43,0.01966
4096.57,0.01964
4092.71,0.01965
4088.85,0.01965
4085,0.01964
4081.14,0.01963
4077.28,0.01963
4073.42,0.01959
4069.57,0.01950
4065.71,0.01952
4061.85,0.01950
4058,0.01950
4054.14,0.01947
4050.28,0.01943
4046.42,0.01938
4042.57,0.01937
4038.71,0.01938
4034.85,0.01934
4030.99,0.01927
4027.14,0.01924
4023.28,0.01920
4019.42,0.01913
4015.56,0.01910
4011.71,0.01906
4007.85,0.01905
4003.99,0.01902
4000.13,0.01900
3996.28,0.01899
3992.42,0.01899
3988.56,0.01893
3984.7,0.01890
3980.85,0.01891
3976.99,0.01884
3973.13,0.01875
3969.27,0.01875
3965.42,0.01872
3961.56,0.01870
3957.7,0.01868
3953.85,0.01861
3949.99,0.01862
3946.13,0.01863
3942.27,0.01859
3938.42,0.01853
3934.56,0.01849
3930.7,0.01851
3926.84,0.01852
3922.99,0.01856
3919.13,0.01853
3915.27,0.01850
3911.41,0.01845
3907.56,0.01854
3903.7,0.01868
3899.84,0.01866
3895.98,0.01859
3892.13,0.01865
3888.27,0.01869
3884.41,0.01872
3880.55,0.01861
3876.7,0.01848
3872.84,0.01851
3868.98,0.01852
3865.12,0.01841
3861.27,0.01828
3857.41,0.01833
3853.55,0.01873
3849.7,0.01828
3845.84,0.01808
3841.98,0.01812
3838.12,0.01819
3834.27,0.01794
3830.41,0.01781
3826.55,0.01770
3822.69,0.01777
3818.84,0.01780
3814.98,0.01769
3811.12,0.01747
3807.26,0.01750
3803.41,0.01750
3799.55,0.01742
3795.69,0.01727
3791.83,0.01716
3787.98,0.01712
3784.12,0.01711
3780.26,0.01707
3776.4,0.01696
3772.55,0.01696
3768.69,0.01697
3764.83,0.01691
3760.97,0.01688
3757.12,0.01685
3753.26,0.01706
3749.4,0.01717
3745.54,0.01707
3741.69,0.01675
3737.83,0.01669
3733.97,0.01674
3730.12,0.01655
3726.26,0.01644
3722.4,0.01637
3718.54,0.01625
3714.69,0.01621
3710.83,0.01626
3706.97,0.01603
3703.11,0.01592
3699.26,0.01582
3695.4,0.01577
3691.54,0.01588
3687.68,0.01588
3683.83,0.01556
3679.97,0.01560
3676.11,0.01580
3672.25,0.01570
3668.4,0.01554
3664.54,0.01517
3660.68,0.01507
3656.82,0.01515
3652.97,0.01514
3649.11,0.01527
3645.25,0.01502
3641.39,0.01483
3637.54,0.01479
3633.68,0.01484
3629.82,0.01510
3625.97,0.01491
3622.11,0.01485
3618.25,0.01489
3614.39,0.01481
3610.54,0.01480
3606.68,0.01473
3602.82,0.01460
3598.96,0.01449
3595.11,0.01445
3591.25,0.01436
3587.39,0.01436
3583.53,0.01422
3579.68,0.01412
3575.82,0.01405
3571.96,0.01404
3568.1,0.01410
3564.25,0.01395
3560.39,0.01381
3556.53,0.01378
3552.67,0.01374
3548.82,0.01372
3544.96,0.01360
3541.1,0.01358
3537.24,0.01368
3533.39,0.01380
3529.53,0.01401
3525.67,0.01430
3521.82,0.01467
3517.96,0.01509
3514.1,0.01566
3510.24,0.01633
3506.39,0.01708
3502.53,0.01797
3498.67,0.01902
3494.81,0.02020
3490.96,0.02164
3487.1,0.02362
3483.24,0.02654
3479.38,0.03140
3475.53,0.04083
3471.67,0.05486
3467.81,0.06176
3463.95,0.05571
3460.1,0.04714
3456.24,0.04105
3452.38,0.03711
3448.52,0.03475
3444.67,0.03344
3440.81,0.03303
3436.95,0.03350
3433.09,0.03489
3429.24,0.03763
3425.38,0.04300
3421.52,0.05082
3417.67,0.05579
3413.81,0.05491
3409.95,0.05123
3406.09,0.04724
3402.24,0.04425
3398.38,0.04248
3394.52,0.04181
3390.66,0.04186
3386.81,0.04245
3382.95,0.04346
3379.09,0.04488
3375.23,0.04669
3371.38,0.04884
3367.52,0.05132
3363.66,0.05411
3359.8,0.05721
3355.95,0.06058
3352.09,0.06420
3348.23,0.06792
3344.37,0.07156
3340.52,0.07485
3336.66,0.07764
3332.8,0.07979
3328.94,0.08124
3325.09,0.08200
3321.23,0.08206
3317.37,0.08152
3313.52,0.08055
3309.66,0.07921
3305.8,0.07773
3301.94,0.07629
3298.09,0.07493
3294.23,0.07363
3290.37,0.07241
3286.51,0.07131
3282.66,0.07022
3278.8,0.06923
3274.94,0.06846
3271.08,0.06778
3267.23,0.06722
3263.37,0.06679
3259.51,0.06657
3255.65,0.06650
3251.8,0.06658
3247.94,0.06688
3244.08,0.06742
3240.22,0.06814
3236.37,0.06917
3232.51,0.07037
3228.65,0.07185
3224.79,0.07358
3220.94,0.07541
3217.08,0.07737
3213.22,0.07944
3209.36,0.08147
3205.51,0.08348
3201.65,0.08545
3197.79,0.08728
3193.94,0.08882
3190.08,0.09026
3186.22,0.09146
3182.36,0.09254
3178.51,0.09354
3174.65,0.09453
3170.79,0.09562
3166.93,0.09702
3163.08,0.09880
3159.22,0.10098
3155.36,0.10352
3151.5,0.10628
3147.65,0.10923
3143.79,0.11230
3139.93,0.11523
3136.07,0.11779
3132.22,0.11975
3128.36,0.12097
3124.5,0.12144
3120.64,0.12132
3116.79,0.12056
3112.93,0.11944
3109.07,0.11803
3105.21,0.11647
3101.36,0.11491
3097.5,0.11333
3093.64,0.11175
3089.79,0.11010
3085.93,0.10843
3082.07,0.10667
3078.21,0.10488
3074.36,0.10318
3070.5,0.10148
3066.64,0.09972
3062.78,0.09802
3058.93,0.09639
3055.07,0.09475
3051.21,0.09317
3047.35,0.09161
3043.5,0.09009
3039.64,0.08857
3035.78,0.08714
3031.92,0.08574
3028.07,0.08432
3024.21,0.08296
3020.35,0.08167
3016.49,0.08037
3012.64,0.07912
3008.78,0.07790
3004.92,0.07673
3001.06,0.07565
2997.21,0.07459
2993.35,0.07359
2989.49,0.07271
2985.64,0.07189
2981.78,0.07116
2977.92,0.07042
2974.06,0.06959
2970.21,0.06868
2966.35,0.06772
2962.49,0.06674
2958.63,0.06581
2954.78,0.06490
2950.92,0.06399
2947.06,0.06299
2943.2,0.06195
2939.35,0.06094
2935.49,0.05989
2931.63,0.05882
2927.77,0.05778
2923.92,0.05678
2920.06,0.05581
2916.2,0.05501
2912.34,0.05451
2908.49,0.05400
2904.63,0.05340
2900.77,0.05277
2896.91,0.05221
2893.06,0.05174
2889.2,0.05130
2885.34,0.05092
2881.49,0.05060
2877.63,0.05035
2873.77,0.05018
2869.91,0.05004
2866.06,0.04988
2862.2,0.04973
2858.34,0.04957
2854.48,0.04938
2850.63,0.04931
2846.77,0.04945
2842.91,0.04973
2839.05,0.04986
2835.2,0.04987
2831.34,0.04982
2827.48,0.04967
2823.62,0.04947
2819.77,0.04916
2815.91,0.04881
2812.05,0.04841
2808.19,0.04793
2804.34,0.04742
2800.48,0.04688
2796.62,0.04630
2792.76,0.04578
2788.91,0.04523
2785.05,0.04474
2781.19,0.04431
2777.34,0.04391
2773.48,0.04354
2769.62,0.04319
2765.76,0.04282
2761.91,0.04243
2758.05,0.04212
2754.19,0.04186
2750.33,0.04159
2746.48,0.04133
2742.62,0.04101
2738.76,0.04060
2734.9,0.04017
2731.05,0.03976
2727.19,0.03940
2723.33,0.03915
2719.47,0.03897
2715.62,0.03891
2711.76,0.03887
2707.9,0.03882
2704.04,0.03879
2700.19,0.03875
2696.33,0.03872
2692.47,0.03871
2688.61,0.03869
2684.76,0.03859
2680.9,0.03841
2677.04,0.03819
2673.19,0.03787
2669.33,0.03750
2665.47,0.03716
2661.61,0.03696
2657.76,0.03680
2653.9,0.03657
2650.04,0.03634
2646.18,0.03613
2642.33,0.03595
2638.47,0.03575
2634.61,0.03558
2630.75,0.03537
2626.9,0.03519
2623.04,0.03507
2619.18,0.03485
2615.32,0.03468
2611.47,0.03455
2607.61,0.03439
2603.75,0.03422
2599.89,0.03403
2596.04,0.03392
2592.18,0.03374
2588.32,0.03368
2584.46,0.03354
2580.61,0.03346
2576.75,0.03339
2572.89,0.03334
2569.03,0.03324
2565.18,0.03309
2561.32,0.03295
2557.46,0.03283
2553.61,0.03265
2549.75,0.03245
2545.89,0.03226
2542.03,0.03210
2538.18,0.03189
2534.32,0.03168
2530.46,0.03153
2526.6,0.03141
2522.75,0.03123
2518.89,0.03107
2515.03,0.03099
2511.17,0.03087
2507.32,0.03085
2503.46,0.03079
2499.6,0.03058
2495.74,0.03041
2491.89,0.03024
2488.03,0.02999
2484.17,0.02987
2480.31,0.02973
2476.46,0.02954
2472.6,0.02932
2468.74,0.02909
2464.88,0.02887
2461.03,0.02866
2457.17,0.02847
2453.31,0.02831
2449.46,0.02810
2445.6,0.02782
2441.74,0.02755
2437.88,0.02730
2434.03,0.02716
2430.17,0.02698
2426.31,0.02672
2422.45,0.02651
2418.6,0.02630
2414.74,0.02607
2410.88,0.02595
2407.02,0.02564
2403.17,0.02534
2399.31,0.02517
2395.45,0.02501
2391.59,0.02489
2387.74,0.02472
2383.88,0.02467
2380.02,0.02484
2376.16,0.02535
2372.31,0.02620
2368.45,0.02712
2364.59,0.02790
2360.73,0.02821
2356.88,0.02762
2353.02,0.02625
2349.16,0.02524
2345.31,0.02604
2341.45,0.02697
2337.59,0.02725
2333.73,0.02715
2329.88,0.02689
2326.02,0.02724
2322.16,0.02751
2318.3,0.02664
2314.45,0.02599
2310.59,0.02560
2306.73,0.02535
2302.87,0.02522
2299.02,0.02523
2295.16,0.02531
2291.3,0.02560
2287.44,0.02599
2283.59,0.02620
2279.73,0.02608
2275.87,0.02619
2272.01,0.02638
2268.16,0.02658
2264.3,0.02669
2260.44,0.02692
2256.58,0.02725
2252.73,0.02722
2248.87,0.02745
2245.01,0.02789
2241.16,0.02836
2237.3,0.02870
2233.44,0.02899
2229.58,0.02928
2225.73,0.02953
2221.87,0.02979
2218.01,0.03000
2214.15,0.03028
2210.3,0.03065
2206.44,0.03090
2202.58,0.03108
2198.72,0.03122
2194.87,0.03149
2191.01,0.03185
2187.15,0.03212
2183.29,0.03205
2179.44,0.03151
2175.58,0.03127
2171.72,0.03135
2167.86,0.03188
2164.01,0.03262
2160.15,0.03225
2156.29,0.02819
2152.43,0.02764
2148.58,0.02742
2144.72,0.02656
2140.86,0.02601
2137.01,0.02524
2133.15,0.02380
2129.29,0.02325
2125.43,0.02318
2121.58,0.02306
2117.72,0.02296
2113.86,0.02306
2110,0.02285
2106.15,0.02250
2102.29,0.02215
2098.43,0.02183
2094.57,0.02111
2090.72,0.02091
2086.86,0.02104
2083,0.02117
2079.14,0.02125
2075.29,0.02134
2071.43,0.02129
2067.57,0.02134
2063.71,0.02124
2059.86,0.02133
2056,0.02153
2052.14,0.02222
2048.28,0.02276
2044.43,0.02243
2040.57,0.02268
2036.71,0.02309
2032.85,0.02259
2029,0.02216
2025.14,0.02183
2021.28,0.02148
2017.43,0.02110
2013.57,0.02084
2009.71,0.02039
2005.85,0.01940
2002,0.01877
1998.14,0.01859
1994.28,0.01858
1990.42,0.01854
1986.57,0.01861
1982.71,0.01926
1978.85,0.01989
1974.99,0.01816
1971.14,0.01732
1967.28,0.01688
1963.42,0.01627
1959.56,0.01543
1955.71,0.01499
1951.85,0.01467
1947.99,0.01422
1944.13,0.01387
1940.28,0.01338
1936.42,0.01295
1932.56,0.01262
1928.7,0.01227
1924.85,0.01192
1920.99,0.01185
1917.13,0.01176
1913.28,0.01146
1909.42,0.01118
1905.56,0.01095
1901.7,0.01070
1897.85,0.01050
1893.99,0.01031
1890.13,0.01018
1886.27,0.00996
1882.42,0.00978
1878.56,0.00963
1874.7,0.00948
1870.84,0.00939
1866.99,0.00921
1863.13,0.00905
1859.27,0.00889
1855.41,0.00871
1851.56,0.00860
1847.7,0.00847
1843.84,0.00840
1839.98,0.00811
1836.13,0.00799
1832.27,0.00791
1828.41,0.00785
1824.55,0.00769
1820.7,0.00748
1816.84,0.00702
1812.98,0.00700
1809.13,0.00704
1805.27,0.00698
1801.41,0.00701
1797.55,0.00702
1793.7,0.00712
1789.84,0.00715
1785.98,0.00724
1782.12,0.00739
1778.27,0.00753
1774.41,0.00783
1770.55,0.00806
1766.69,0.00802
1762.84,0.00805
1758.98,0.00796
1755.12,0.00789
1751.26,0.00800
1747.41,0.00796
1743.55,0.00803
1739.69,0.00825
1735.83,0.00870
1731.98,0.00912
1728.12,0.00944
1724.26,0.01015
1720.4,0.01116
1716.55,0.01244
1712.69,0.01337
1708.83,0.01474
1704.98,0.01650
1701.12,0.01866
1697.26,0.02079
1693.4,0.02311
1689.55,0.02641
1685.69,0.03140
1681.83,0.03746
1677.97,0.04459
1674.12,0.05251
1670.26,0.06170
1666.4,0.07327
1662.54,0.08643
1658.69,0.09909
1654.83,0.11112
1650.97,0.12068
1647.11,0.12571
1643.26,0.12771
1639.4,0.13006
1635.54,0.13452
1631.68,0.13973
1627.83,0.14493
1623.97,0.14849
1620.11,0.14884
1616.25,0.14558
1612.4,0.13946
1608.54,0.13310
1604.68,0.12807
1600.83,0.12535
1596.97,0.12613
1593.11,0.13124
1589.25,0.13939
1585.4,0.14815
1581.54,0.15572
1577.68,0.16154
1573.82,0.16509
1569.97,0.16799
1566.11,0.17159
1562.25,0.17752
1558.39,0.18633
1554.54,0.19572
1550.68,0.20498
1546.82,0.21230
1542.96,0.21691
1539.11,0.21914
1535.25,0.21972
1531.39,0.21971
1527.53,0.21846
1523.68,0.21483
1519.82,0.20777
1515.96,0.19766
1512.1,0.18640
1508.25,0.17603
1504.39,0.16630
1500.53,0.15758
1496.68,0.14992
1492.82,0.14316
1488.96,0.13787
1485.1,0.13460
1481.25,0.13581
1477.39,0.14406
1473.53,0.15837
1469.67,0.17249
1465.82,0.17998
1461.96,0.17988
1458.1,0.17807
1454.24,0.17859
1450.39,0.18410
1446.53,0.19547
1442.67,0.21082
1438.81,0.22755
1434.96,0.24099
1431.1,0.24585
1427.24,0.24337
1423.38,0.23786
1419.53,0.23199
1415.67,0.22613
1411.81,0.22028
1407.95,0.21402
1404.1,0.20791
1400.24,0.20205
1396.38,0.19632
1392.52,0.19053
1388.67,0.18494
1384.81,0.17974
1380.95,0.17544
1377.1,0.17250
1373.24,0.17167
1369.38,0.17378
1365.52,0.17858
1361.67,0.18280
1357.81,0.18425
1353.95,0.18467
1350.09,0.18498
1346.24,0.18518
1342.38,0.18507
1338.52,0.18468
1334.66,0.18421
1330.81,0.18415
1326.95,0.18440
1323.09,0.18444
1319.23,0.18361
1315.38,0.18193
1311.52,0.18027
1307.66,0.17877
1303.8,0.17615
1299.95,0.17207
1296.09,0.16731
1292.23,0.16266
1288.37,0.15875
1284.52,0.15584
1280.66,0.15371
1276.8,0.15199
1272.95,0.15075
1269.09,0.15008
1265.23,0.14961
1261.37,0.14888
1257.52,0.14766
1253.66,0.14605
1249.8,0.14414
1245.94,0.14205
1242.09,0.13996
1238.23,0.13789
1234.37,0.13580
1230.51,0.13363
1226.66,0.13153
1222.8,0.12951
1218.94,0.12772
1215.08,0.12648
1211.23,0.12598
1207.37,0.12655
1203.51,0.12834
1199.65,0.13054
1195.8,0.13194
1191.94,0.13245
1188.08,0.13271
1184.22,0.13230
1180.37,0.13156
1176.51,0.13164
1172.65,0.13169
1168.8,0.12967
1164.94,0.12582
1161.08,0.12187
1157.22,0.11891
1153.37,0.11692
1149.51,0.11525
1145.65,0.11361
1141.79,0.11208
1137.94,0.11067
1134.08,0.10936
1130.22,0.10815
1126.36,0.10718
1122.51,0.10673
1118.65,0.10750
1114.79,0.10920
1110.93,0.11046
1107.08,0.11063
1103.22,0.10935
1099.36,0.10776
1095.5,0.10620
1091.65,0.10481
1087.79,0.10359
1083.93,0.10240
1080.07,0.10118
1076.22,0.09992
1072.36,0.09876
1068.5,0.09768
1064.65,0.09663
1060.79,0.09576
1056.93,0.09520
1053.07,0.09508
1049.22,0.09589
1045.36,0.09900
1041.5,0.10582
1037.64,0.11621
1033.79,0.12635
1029.93,0.13307
1026.07,0.13694
1022.21,0.13813
1018.36,0.13642
1014.5,0.13270
1010.64,0.12821
1006.78,0.12347
1002.93,0.11858
999.069,0.11385
995.212,0.10993
991.354,0.10731
987.497,0.10545
983.64,0.10357
979.782,0.10145
975.925,0.09908
972.067,0.09661
968.21,0.09447
964.352,0.09273
960.495,0.09131
956.638,0.09002
952.78,0.08867
948.923,0.08723
945.065,0.08585
941.208,0.08450
937.351,0.08331
933.493,0.08224
929.636,0.08131
925.778,0.08055
921.921,0.07982
918.064,0.07915
914.206,0.07867
910.349,0.07826
906.491,0.07790
902.634,0.07759
898.777,0.07737
894.919,0.07735
891.062,0.07736
887.204,0.07744
883.347,0.07761
879.489,0.07793
875.632,0.07802
871.775,0.07798
867.917,0.07783
864.06,0.07752
860.202,0.07723
856.345,0.07701
852.488,0.07681
848.63,0.07692
844.773,0.07726
840.915,0.07817
837.058,0.07981
833.201,0.08266
829.343,0.08793
825.486,0.09778
821.628,0.11639
817.771,0.14903
813.913,0.19109
810.056,0.21811
806.199,0.21176
802.341,0.18857
798.484,0.16940
794.626,0.15192
790.769,0.14191
786.912,0.13760
783.054,0.13541
779.197,0.13484
775.339,0.13568
771.482,0.13677
767.625,0.13668
763.767,0.13592
759.91,0.13425
756.052,0.13124
752.195,0.12847
748.338,0.12531
744.48,0.12070
740.623,0.12119
736.765,0.12860
732.908,0.13405
729.05,0.13517
725.193,0.13472
721.336,0.13426
717.478,0.13378
713.621,0.13363
709.763,0.13392
705.906,0.13438
702.049,0.13475
698.191,0.13529
694.334,0.13613
690.476,0.13683
686.619,0.13732
682.762,0.13773
678.904,0.14095
675.047,0.14559
671.189,0.14666
667.332,0.14757
663.474,0.14715
659.617,0.14794
655.76,0.14919
651.902,0.15116
648.045,0.15309
644.187,0.15621
640.33,0.15946
636.473,0.16315
632.615,0.16704
628.758,0.17144
624.9,0.17658
621.043,0.18070
617.186,0.18603
613.328,0.19069
609.471,0.19375
605.613,0.19265
601.756,0.18741
599.827,0.18211